File: measurements/ref/TRACE01MAGPHASE.CSV
!Keysight Technologies,E4990A,MY54302532,A.03.02
!Date: Wed May 07 10:40:29 2025

BEGIN CH1_DATA
Frequency(Hz), |Z|(Ohm)-data, theta-z(deg)-data
50000, 1279.21, -88.7571
50130.1, 1275.98, -88.7711
50260.6, 1272.37, -88.7732
50391.4, 1268.86, -88.7635
50522.6, 1265.88, -88.7542
50654.1, 1262.56, -88.7741
50785.9, 1259.12, -88.7757
50918.1, 1255.69, -88.7748
51050.6, 1252.27, -88.7738
51183.5, 1248.9, -88.7712
51316.7, 1245.66, -88.7662
51450.2, 1242.31, -88.7691
51584.2, 1239, -88.7682
51718.4, 1235.67, -88.7664
51853, 1232.31, -88.7601
51988, 1229.29, -88.7517
52123.3, 1226.07, -88.7607
52258.9, 1222.75, -88.7616
52395, 1219.5, -88.7607
52531.3, 1216.21, -88.7607
52668.1, 1212.95, -88.7581
52805.1, 1209.74, -88.7578
52942.6, 1206.43, -88.7556
53080.4, 1203.2, -88.7464
53218.5, 1200.02, -88.7376
53357, 1197.3, -88.7346
53495.9, 1194.02, -88.7532
53635.1, 1190.64, -88.7531
53774.7, 1187.34, -88.7464
53914.7, 1184.05, -88.7415
54055, 1180.79, -88.7196
54195.7, 1178.16, -88.698
54336.7, 1175.62, -88.7209
54478.2, 1172.24, -88.7308
54620, 1169.18, -88.7387
54762.1, 1165.76, -88.7415
54904.6, 1162.46, -88.7378
55047.5, 1159.14, -88.7271
55190.8, 1155.99, -88.6966
55334.5, 1153.78, -88.6808
55478.5, 1150.93, -88.7215
55622.9, 1147.41, -88.7241
55767.6, 1144.11, -88.7041
55912.8, 1141.42, -88.7
56058.3, 1137.91, -88.6837
56204.2, 1135.68, -88.6225
56350.5, 1134, -88.69
56497.2, 1130.45, -88.7153
56644.2, 1127.31, -88.7231
56791.6, 1124.18, -88.7276
56939.4, 1121.09, -88.732
57087.6, 1117.99, -88.731
57236.2, 1114.93, -88.7374
57385.2, 1111.77, -88.7361
57534.5, 1108.73, -88.73
57684.3, 1105.72, -88.7277
57834.4, 1102.76, -88.7239
57984.9, 1099.74, -88.724
58135.8, 1096.72, -88.7147
58287.2, 1093.88, -88.7093
58438.9, 1090.79, -88.7061
58591, 1087.97, -88.6803
58743.5, 1085.71, -88.6748
58896.3, 1083.11, -88.7046
59049.6, 1079.89, -88.7158
59203.3, 1076.87, -88.7129
59357.4, 1073.9, -88.7134
59511.9, 1070.95, -88.7073
59666.8, 1068.25, -88.7015
59822.1, 1065.37, -88.7134
59977.8, 1062.33, -88.7138
60133.9, 1059.41, -88.704
60290.4, 1056.73, -88.6958
60447.3, 1053.92, -88.7082
60604.6, 1050.99, -88.7038
60762.4, 1047.99, -88.7063
60920.5, 1044.91, -88.6916
61079.1, 1042.16, -88.6532
61238, 1040.41, -88.6525
61397.4, 1037.45, -88.6838
61557.2, 1034.6, -88.6835
61717.4, 1031.84, -88.6917
61878.1, 1028.93, -88.6963
62039.1, 1026.07, -88.694
62200.6, 1023.23, -88.6895
62362.5, 1020.48, -88.6867
62524.8, 1017.75, -88.6829
62687.5, 1015.11, -88.6805
62850.7, 1012.35, -88.6872
63014.2, 1009.52, -88.6893
63178.3, 1006.66, -88.6858
63342.7, 1003.92, -88.6743
63507.5, 1001.32, -88.6703
63672.8, 998.736, -88.6755
63838.6, 995.923, -88.681
64004.7, 993.107, -88.6801
64171.3, 990.328, -88.6763
64338.3, 987.581, -88.6732
64505.8, 984.797, -88.6664
64673.7, 982.069, -88.6578
64842, 979.522, -88.6519
65010.7, 976.542, -88.6463
65179.9, 973.739, -88.6355
65349.6, 971.224, -88.6152
65519.7, 968.89, -88.6305
65690.2, 965.976, -88.64
65861.2, 963.136, -88.6379
66032.6, 960.258, -88.6328
66204.4, 957.441, -88.619
66376.8, 954.637, -88.6006
66549.5, 952.158, -88.5741
66722.7, 949.367, -88.5469
66896.4, 947.251, -88.5132
67070.5, 944.832, -88.5315
67245.1, 942.601, -88.522
67420.1, 939.886, -88.547
67595.5, 936.972, -88.5548
67771.5, 934.104, -88.5438
67947.9, 931.11, -88.5266
68124.7, 928.215, -88.5058
68302, 925.285, -88.4773
68479.8, 922.413, -88.445
68658, 919.37, -88.3876
68836.7, 916.69, -88.3084
69015.9, 914.327, -88.2266
69195.5, 911.886, -88.1193
69375.6, 910.907, -87.9459
69556.2, 911.346, -87.8555
69737.2, 910.977, -87.8602
69918.7, 910.133, -87.8787
70100.7, 909.257, -87.9096
70283.1, 907.845, -87.9805
70466, 905.951, -88.0325
70649.4, 903.967, -88.0849
70833.3, 901.617, -88.1328
71017.7, 899.373, -88.1613
71202.5, 897.253, -88.2071
71387.8, 894.751, -88.2535
71573.6, 892.09, -88.282
71759.9, 889.56, -88.2989
71946.7, 886.924, -88.321
72133.9, 884.729, -88.3018
72321.7, 882.568, -88.3566
72509.9, 880.049, -88.3659
72698.6, 877.692, -88.3961
72887.8, 875.105, -88.4165
73077.5, 872.649, -88.4377
73267.7, 870.046, -88.4588
73458.4, 867.419, -88.468
73649.6, 864.897, -88.4774
73841.3, 862.401, -88.486
74033.5, 859.671, -88.4905
74226.2, 857.343, -88.4689
74419.4, 855.362, -88.4903
74613.1, 852.606, -88.5132
74807.2, 849.908, -88.5002
75001.9, 847.888, -88.4759
75197.2, 845.646, -88.5133
75392.9, 843.086, -88.5066
75589.1, 841.005, -88.5069
75785.8, 838.585, -88.5319
75983.1, 836.117, -88.5389
76180.8, 833.73, -88.5454
76379.1, 831.255, -88.5551
76577.9, 828.785, -88.5593
76777.2, 826.295, -88.5598
76977, 823.886, -88.5581
77177.4, 821.432, -88.5561
77378.2, 819.026, -88.5434
77579.6, 816.885, -88.5372
77781.6, 814.681, -88.5441
77984, 812.333, -88.552
78187, 809.961, -88.5556
78390.5, 807.605, -88.5558
78594.5, 805.27, -88.5566
78799, 802.9, -88.5593
79004.1, 800.513, -88.5546
79209.8, 798.201, -88.5489
79415.9, 795.936, -88.5436
79622.6, 793.668, -88.5434
79829.8, 791.352, -88.544
80037.6, 789.061, -88.5412
80245.9, 786.716, -88.5417
80454.8, 784.347, -88.5399
80664.2, 781.984, -88.5329
80874.1, 779.623, -88.5249
81084.6, 777.275, -88.5153
81295.6, 774.85, -88.4995
81507.2, 772.539, -88.4605
81719.4, 770.962, -88.4356
81932.1, 768.918, -88.4683
82145.3, 766.537, -88.4637
82359.1, 764.309, -88.4584
82573.5, 762.013, -88.4667
82788.4, 759.608, -88.451
83003.8, 757.562, -88.4326
83219.9, 755.389, -88.4545
83436.5, 752.901, -88.4504
83653.6, 750.544, -88.4402
83871.4, 748.187, -88.4341
84089.6, 745.653, -88.4266
84308.5, 743.132, -88.4077
84527.9, 740.594, -88.3863
84747.9, 738.009, -88.3538
84968.5, 735.373, -88.3115
85189.6, 732.757, -88.2648
85411.4, 729.983, -88.2201
85633.7, 726.842, -88.1349
85856.5, 723.673, -87.9411
86080, 721.198, -87.672
86304, 720.229, -87.3548
86528.7, 720.548, -87.1209
86753.9, 723.169, -86.8693
86979.7, 725.596, -86.9297
87206, 725.543, -87.0706
87433, 723.8, -87.1338
87660.6, 724.811, -87.13
87888.7, 725.042, -87.3148
88117.5, 723.384, -87.4501
88346.8, 722.806, -87.568
88576.8, 721.019, -87.7473
88807.3, 718.549, -87.8885
89038.4, 715.766, -87.9836
89270.2, 713.106, -88.018
89502.5, 711.053, -88.0697
89735.5, 708.694, -88.1358
89969, 706.216, -88.1743
90203.2, 703.881, -88.2252
90437.9, 701.239, -88.2646
90673.3, 698.647, -88.2838
90909.3, 696.218, -88.2792
91145.9, 694.184, -88.2985
91383.1, 691.749, -88.3248
91621, 689.303, -88.3355
91859.4, 686.809, -88.3321
92098.5, 684.466, -88.2982
92338.2, 682.893, -88.2703
92578.6, 680.931, -88.3187
92819.5, 678.59, -88.3349
93061.1, 676.27, -88.3333
93303.3, 674.037, -88.3175
93546.1, 671.999, -88.3065
93789.6, 670.058, -88.2952
94033.7, 668.11, -88.3055
94278.5, 665.981, -88.3107
94523.8, 663.94, -88.2968
94769.8, 662.026, -88.295
95016.5, 660.148, -88.3087
95263.8, 657.935, -88.3259
95511.7, 655.787, -88.3254
95760.3, 653.52, -88.3266
96009.6, 651.358, -88.31
96259.4, 649.209, -88.2905
96510, 647.366, -88.2664
96761.2, 645.36, -88.2762
97013, 643.21, -88.2669
97265.5, 641.063, -88.2507
97518.6, 638.985, -88.2221
97772.5, 637.159, -88.18
98026.9, 635.677, -88.1842
98282.1, 633.632, -88.21
98537.9, 631.461, -88.2095
98794.3, 629.345, -88.2047
99051.4, 627.27, -88.1974
99309.2, 625.125, -88.1998
99567.7, 622.776, -88.1943
99826.9, 620.457, -88.1702
100087, 618.202, -88.1351
100347, 616.068, -88.1114
100608, 613.827, -88.086
100870, 611.464, -88.0699
101133, 609.005, -88.029
101396, 606.469, -87.9861
101660, 603.953, -87.9246
101924, 601.41, -87.856
102190, 598.744, -87.7836
102456, 595.869, -87.689
102722, 592.876, -87.5536
102990, 589.826, -87.364
103258, 586.905, -87.1442
103526, 583.684, -86.8458
103796, 580.704, -86.3839
104066, 579.308, -85.7517
104337, 582.917, -85.3656
104608, 584.479, -84.8892
104881, 589.733, -84.3972
105154, 597.45, -84.2515
105427, 605.121, -84.5829
105702, 608.976, -85.2042
105977, 608.943, -85.794
106253, 607.401, -86.2482
106529, 605.075, -86.5704
106807, 602.615, -86.8433
107085, 600.103, -87.0359
107363, 597.583, -87.2245
107643, 594.897, -87.3672
107923, 592.336, -87.4747
108204, 589.705, -87.5681
108485, 587.2, -87.6376
108768, 584.715, -87.673
109051, 582.612, -87.6922
109335, 580.763, -87.7409
109619, 578.725, -87.7889
109904, 576.527, -87.8325
110191, 574.545, -87.846
110477, 572.696, -87.8646
110765, 571.042, -87.9178
111053, 568.931, -87.9657
111342, 566.929, -87.9883
111632, 564.946, -88.0184
111922, 563.007, -88.0317
112214, 561.103, -88.0487
112506, 559.314, -88.0801
112799, 557.272, -88.1059
113092, 555.359, -88.1083
113387, 553.52, -88.1284
113682, 551.529, -88.1386
113978, 549.654, -88.1462
114274, 547.742, -88.146
114572, 545.996, -88.1451
114870, 544.232, -88.156
115169, 542.393, -88.1572
115469, 540.657, -88.1561
115769, 538.918, -88.1624
116070, 537.12, -88.1657
116372, 535.354, -88.1623
116675, 533.633, -88.1592
116979, 531.942, -88.1591
117283, 530.25, -88.1603
117589, 528.51, -88.1646
117895, 526.791, -88.1623
118202, 525.094, -88.1623
118509, 523.343, -88.1654
118818, 521.622, -88.1554
119127, 519.925, -88.1598
119437, 518.056, -88.1429
119748, 516.467, -88.1199
120060, 514.786, -88.104
120372, 513.17, -88.0702
120685, 512.061, -88.0389
120999, 510.713, -88.0924
121314, 508.809, -88.1143
121630, 507.05, -88.0992
121947, 505.374, -88.0798
122264, 503.885, -88.0573
122582, 502.47, -88.0493
122901, 501.085, -88.0629
123221, 499.441, -88.0819
123542, 497.77, -88.0916
123863, 496.031, -88.0994
124186, 494.117, -88.0922
124509, 492.381, -88.0493
124833, 490.857, -87.9938
125158, 489.782, -87.9675
125484, 488.313, -87.9761
125810, 486.819, -87.9778
126138, 485.485, -87.9792
126466, 483.889, -87.9988
126795, 482.374, -87.9932
127125, 480.808, -88.0021
127456, 479.243, -87.9902
127788, 477.677, -88.002
128120, 476.056, -87.999
128454, 474.332, -87.9957
128788, 472.726, -87.984
129123, 470.823, -87.9485
129459, 469.244, -87.8796
129796, 467.96, -87.7897
130134, 467.291, -87.7552
130473, 466.557, -87.8033
130812, 465.07, -87.8696
131153, 463.404, -87.9008
131494, 461.854, -87.8855
131837, 460.365, -87.9243
132180, 458.619, -87.9131
132524, 457.178, -87.898
132869, 455.668, -87.8985
133214, 454.128, -87.9145
133561, 452.439, -87.9044
133909, 450.908, -87.8951
134257, 449.35, -87.8636
134607, 448.044, -87.8623
134957, 446.541, -87.8631
135308, 444.969, -87.8445
135660, 443.648, -87.8376
136014, 442.156, -87.8443
136368, 440.595, -87.8537
136722, 438.861, -87.8385
137078, 437.229, -87.8114
137435, 435.798, -87.7559
137793, 434.602, -87.729
138151, 433.379, -87.7343
138511, 431.982, -87.7512
138871, 430.43, -87.7674
139233, 428.818, -87.7654
139595, 427.281, -87.7641
139959, 425.733, -87.7649
140323, 424.102, -87.7551
140688, 422.47, -87.7493
141054, 420.785, -87.7289
141421, 419.185, -87.7005
141789, 417.648, -87.6786
142158, 415.997, -87.6636
142528, 414.291, -87.6252
142899, 412.688, -87.578
143271, 411.114, -87.5437
143644, 409.428, -87.5056
144018, 407.602, -87.4482
144393, 405.774, -87.3441
144769, 404.129, -87.2127
145146, 402.465, -87.0439
145523, 401.091, -86.8248
145902, 400.351, -86.6025
146282, 399.756, -86.4337
146662, 399.544, -86.2686
147044, 399.238, -86.1879
147427, 398.901, -86.1515
147811, 398.197, -86.1193
148195, 397.796, -86.0887
148581, 397.416, -86.0978
148968, 396.647, -86.1353
149355, 395.839, -86.1524
149744, 395.077, -86.2035
150134, 394.01, -86.2575
150525, 392.793, -86.2858
150916, 391.525, -86.3299
151309, 390.253, -86.3365
151703, 389.116, -86.3546
152098, 388.05, -86.3682
152494, 387.071, -86.42
152891, 385.756, -86.4681
153289, 384.425, -86.5013
153688, 383.118, -86.5297
154088, 381.724, -86.5538
154489, 380.491, -86.5731
154891, 379.411, -86.6171
155294, 378.028, -86.6801
155698, 376.55, -86.7149
156103, 375.079, -86.7486
156509, 373.614, -86.7727
156917, 372.082, -86.8054
157325, 370.549, -86.8226
157735, 368.988, -86.8414
158145, 367.396, -86.8508
158557, 365.846, -86.8518
158970, 364.254, -86.8525
159383, 362.664, -86.8481
159798, 361.031, -86.8423
160214, 359.466, -86.8151
160631, 357.818, -86.7876
161049, 356.232, -86.7351
161468, 354.717, -86.6795
161888, 353.313, -86.6106
162310, 352.094, -86.574
162732, 350.773, -86.5704
163156, 349.275, -86.5308
163580, 347.791, -86.5181
164006, 346.347, -86.446
164433, 345.082, -86.3925
164861, 343.956, -86.3361
165290, 343.02, -86.3241
165720, 342.037, -86.3646
166152, 340.622, -86.4469
166584, 338.844, -86.506
167018, 336.927, -86.5116
167452, 335.053, -86.4815
167888, 333.202, -86.4266
168325, 331.353, -86.3329
168763, 329.932, -86.2211
169202, 328.417, -86.1511
169643, 326.962, -86.0533
170084, 325.546, -85.9749
170527, 324.041, -85.8999
170971, 322.55, -85.7869
171416, 321.148, -85.682
171862, 319.822, -85.5643
172309, 318.591, -85.4546
172758, 317.377, -85.3488
173207, 316.046, -85.2435
173658, 315.047, -85.1047
174110, 314.021, -85.0313
174563, 313.288, -84.8761
175018, 312.958, -84.8815
175473, 311.94, -84.894
175930, 311, -84.8859
176388, 310.159, -84.848
176847, 309.619, -84.9432
177307, 308.172, -85.0409
177769, 306.874, -85.0706
178231, 305.469, -85.168
178695, 303.606, -85.204
179160, 301.85, -85.1675
179626, 300.52, -85.1634
180094, 298.823, -85.2513
180563, 296.591, -85.2537
181033, 294.484, -85.1383
181504, 292.866, -85.0686
181976, 290.953, -85.0042
182450, 289.255, -84.8981
182925, 287.594, -84.8395
183401, 285.645, -84.7356
183878, 284.17, -84.5634
184357, 282.874, -84.4486
184837, 281.719, -84.3497
185318, 280.554, -84.3346
185800, 279.146, -84.3436
186284, 277.757, -84.3959
186768, 275.85, -84.5193
187254, 273.175, -84.579
187742, 270.373, -84.4772
188230, 268.155, -84.5854
188720, 265.085, -84.4453
189212, 262.044, -84.1988
189704, 259.231, -83.8639
190198, 256.766, -83.4834
190693, 254.271, -83.072
191189, 251.998, -82.5249
191687, 250.437, -81.918
192186, 249.559, -81.2941
192686, 249.286, -80.8171
193187, 249.238, -80.4825
193690, 248.774, -80.3739
194194, 247.594, -80.296
194700, 246.115, -80.1774
195206, 244.173, -80.0931
195714, 241.703, -79.9382
196224, 238.695, -79.625
196735, 236.308, -79.1498
197247, 233.55, -78.76
197760, 230.078, -78.1792
198275, 227.046, -77.1416
198791, 225.437, -75.9146
199308, 226.547, -75.2629
199827, 224.397, -74.2658
200347, 222.769, -73.2722
200868, 221.668, -72.1264
201391, 221.777, -70.1899
201915, 220.685, -68.2609
202441, 227.438, -66.8381
202968, 234.019, -65.5345
203496, 242.013, -65.6259
204026, 245.19, -65.4295
204557, 252.959, -64.8782
205089, 260.478, -65.753
205623, 265.789, -66.4662
206158, 272.523, -67.6374
206694, 275.421, -69.9003
207232, 269.355, -71.6906
207772, 265.535, -71.9074
208313, 262.702, -72.1876
208855, 260.497, -72.2384
209398, 260.087, -71.9072
209943, 261.136, -72.4364
210490, 259.475, -72.7909
211038, 259.092, -73.1833
211587, 257.032, -73.7458
212138, 253.611, -74.0374
212690, 251.868, -73.9604
213243, 249.779, -74.1436
213798, 247.92, -74.1564
214355, 246.346, -74.3963
214913, 243.254, -74.4887
215472, 241.117, -74.3622
216033, 237.81, -74.2956
216595, 236.24, -73.9559
217159, 234.533, -73.7099
217724, 234.81, -73.7039
218291, 232.44, -74.2928
218859, 227.802, -74.3938
219428, 224.426, -73.66
219999, 223.727, -73.5845
220572, 220.346, -73.818
221146, 215.245, -73.716
221722, 210.409, -72.8371
222299, 207.131, -71.3634
222877, 206.902, -70.2129
223457, 206.803, -69.4052
224039, 206.779, -68.8578
224622, 206.104, -68.3776
225207, 205.276, -68.2286
225793, 202.247, -68.0836
226381, 200.081, -66.9396
226970, 200.284, -66.7072
227560, 197.638, -66.4874
228153, 194.15, -66.0058
228747, 189.765, -64.7865
229342, 187.7, -63.5202
229939, 184.589, -62.1993
230537, 182.98, -60.612
231137, 180.528, -59.1224
231739, 179.37, -57.0292
232342, 177.84, -55.3985
232947, 176.216, -52.5266
233553, 176.681, -49.8324
234161, 175.342, -46.3436
234770, 179.19, -40.7324
235381, 192.679, -35.9783
235994, 211.846, -33.0628
236608, 236.834, -31.8383
237224, 264.913, -33.5963
237841, 286.375, -37.3811
238460, 295.937, -42.1169
239081, 296.56, -45.541
239703, 294.989, -48.0278
240327, 294.037, -50.1084
240953, 288.542, -51.5723
241580, 289.664, -53.0023
242209, 285.074, -55.0275
242839, 276.77, -55.9319
243471, 271.211, -56.5487
244105, 263.278, -57.1468
244740, 253.56, -56.9255
245377, 244.702, -55.622
246016, 238.603, -53.7768
246656, 234.129, -51.2584
247298, 233.697, -48.5488
247942, 235.144, -45.8679
248587, 238.046, -41.8867
249234, 251.058, -37.8261
249883, 276.234, -34.8384
250533, 309.192, -35.5731
251185, 330.739, -39.0366
251839, 338.11, -41.5709
252494, 346.743, -41.7661
253151, 370.613, -42.848
253810, 389.238, -45.5194
254471, 405.235, -48.8929
255133, 416.035, -52.5822
255797, 417.963, -56.8813
256463, 412.877, -60.4222
257130, 401.806, -63.9184
257800, 387.06, -66.0186
258471, 375.818, -67.6279
259143, 363.659, -69.1141
259818, 351.151, -69.7991
260494, 342.232, -70.2361
261172, 335.229, -70.3538
261852, 329.784, -70.7325
262533, 327.073, -71.0418
263217, 323.088, -71.8761
263902, 316.648, -72.1305
264588, 311.998, -72.4944
265277, 307.08, -72.7525
265968, 303.608, -72.7319
266660, 301.412, -73.2787
267354, 297.482, -73.7032
268050, 293.08, -74.1415
268747, 288.284, -74.4074
269447, 284.495, -74.6137
270148, 279.901, -74.9362
270851, 274.891, -75.0568
271556, 271.294, -75.0512
272263, 266.539, -75.3608
272971, 260.559, -75.2553
273682, 255.703, -74.9133
274394, 251.344, -74.3482
275108, 248.495, -73.7439
275824, 246.116, -73.2499
276542, 244.773, -72.9295
277262, 242.285, -72.8799
277984, 239.79, -72.7044
278707, 236.023, -72.7189
279433, 230.96, -72.2105
280160, 227.849, -71.2725
280889, 225.903, -70.5008
281620, 223.964, -69.8807
282353, 221.392, -69.0225
283088, 220.23, -67.9525
283825, 220.773, -67.1735
284563, 220.119, -66.7633
285304, 218.878, -66.1603
286047, 217.629, -65.61
286791, 215.871, -64.5471
287537, 217.727, -63.5154
288286, 217.736, -63.3075
289036, 217.086, -62.7494
289788, 215.829, -62.09
290543, 214.591, -61.0245
291299, 214.771, -59.6868
292057, 215.683, -58.2032
292817, 221.337, -57.0214
293579, 222.25, -56.7312
294343, 225.146, -55.1661
295109, 232.28, -53.9011
295878, 242.528, -53.8394
296648, 250.357, -55.3394
297420, 251.107, -56.6936
298194, 250.673, -57.0164
298970, 253.511, -57.0971
299748, 255.551, -57.8727
300528, 257.401, -58.7247
301310, 255.423, -59.7939
302095, 252.64, -59.9189
302881, 250.676, -60.2144
303669, 247.025, -59.7977
304459, 247.809, -58.0685
305252, 258.608, -58.2111
306046, 261.868, -59.7826
306843, 261.711, -61.2883
307641, 258.778, -63.1482
308442, 249.604, -64.1435
309245, 242.635, -63.713
310050, 233.764, -63.3949
310857, 228.226, -61.3503
311666, 225.955, -59.7304
312477, 227.754, -57.3935
313290, 233.966, -56.7281
314106, 234.853, -56.5691
314923, 234.356, -55.8708
315743, 234.834, -55.1687
316565, 234, -53.3951
317389, 240.363, -51.2508
318215, 250.921, -50.3514
319043, 255.509, -50.8727
319873, 258.317, -50.0635
320706, 264.533, -49.1069
321540, 275.375, -48.1882
322377, 288.858, -48.1933
323216, 303.402, -49.5499
324058, 310.66, -51.3235
324901, 319.226, -52.8697
325747, 323.301, -54.8384
326594, 329.256, -56.5055
327444, 330.236, -59.0964
328297, 327.022, -60.7895
329151, 325.352, -62.3288
330008, 321.097, -64.158
330867, 311.94, -65.0397
331728, 309.14, -64.8395
332591, 310.535, -65.7535
333457, 306.914, -67.0384
334325, 301.13, -67.9025
335195, 294.979, -68.3467
336067, 288.505, -68.3329
336942, 284.641, -67.9199
337819, 281.685, -67.2621
338698, 282.325, -66.4271
339580, 285.523, -66.1721
340463, 288.652, -66.2005
341350, 291.454, -66.7091
342238, 293.292, -67.2694
343129, 294.352, -68.0628
344022, 295.549, -68.8158
344917, 295.873, -70.0366
345815, 292.53, -71.2586
346715, 287.11, -71.933
347617, 283.434, -72.1987
348522, 279.713, -72.4178
349429, 276.46, -72.4759
350339, 274.8, -72.2342
351250, 274.873, -72.4423
352165, 273.038, -72.8679
353081, 271.155, -72.969
354000, 269.749, -73.2482
354922, 268.3, -73.4902
355845, 266.494, -73.933
356771, 262.634, -74.359
357700, 258.577, -74.3074
358631, 254.551, -74.2635
359564, 249.854, -73.6562
360500, 247.247, -72.5854
361438, 246.649, -71.3897
362379, 248.03, -70.17
363322, 253.245, -68.7823
364268, 262.151, -68.6626
365216, 269.686, -69.5266
366167, 274.997, -70.934
367120, 275.866, -72.8587
368075, 273.169, -74.0571
369033, 270.407, -75.1094
369994, 267.088, -75.6667
370956, 264.376, -76.131
371922, 262.295, -76.4092
372890, 260.021, -76.8308
373860, 258.836, -77.0639
374834, 258.058, -77.4837
375809, 256.683, -78.1459
376787, 254.054, -78.8102
377768, 250.897, -79.3474
378751, 247.65, -79.7133
379737, 244.201, -80.153
380725, 239.358, -80.3185
381716, 235.477, -79.9514
382710, 233.446, -79.5465
383706, 232.723, -79.2714
384704, 232.061, -79.3689
385706, 230.851, -79.5022
386709, 229.624, -79.7355
387716, 227.651, -80.0752
388725, 224.939, -80.3498
389737, 221.834, -80.4648
390751, 218.597, -80.3652
391768, 215.734, -80.1148
392788, 213.38, -79.7924
393810, 211.466, -79.5117
394835, 208.888, -79.1297
395863, 207.274, -78.6194
396893, 205.539, -78.0623
397926, 204.927, -77.3396
398962, 205.195, -76.8829
400000, 204.926, -76.625
END