File: measurements/ref/TRACE01XY.CSV
!Keysight Technologies,E4990A,MY54302532,A.03.02
!Date: Wed May 07 10:40:02 2025

BEGIN CH1_DATA
Frequency(Hz), R(Ohm)-data, X(Ohm)-data
50000, 27.8124, -1278.85
50130.1, 27.4428, -1275.53
50260.6, 27.3225, -1271.93
50391.4, 27.4453, -1268.45
50522.6, 27.5779, -1265.45
50654.1, 27.0633, -1262.18
50785.9, 26.9522, -1258.69
50918.1, 26.921, -1255.28
51050.6, 26.8755, -1251.88
51183.5, 26.8345, -1248.47
51316.7, 26.8724, -1245.22
51450.2, 26.762, -1241.93
51584.2, 26.6779, -1238.58
51718.4, 26.6531, -1235.19
51853, 26.7485, -1231.9
51988, 26.8503, -1228.83
52123.3, 26.551, -1225.63
52258.9, 26.4984, -1222.32
52395, 26.4288, -1219.03
52531.3, 26.3884, -1215.73
52668.1, 26.3668, -1212.47
52805.1, 26.2928, -1209.28
52942.6, 26.3128, -1205.92
53080.4, 26.39, -1202.73
53218.5, 26.4875, -1199.58
53357, 26.5186, -1196.84
53495.9, 26.056, -1193.58
53635.1, 25.9712, -1190.23
53774.7, 26.0164, -1186.91
53914.7, 26.0962, -1183.7
54055, 26.4345, -1180.42
54195.7, 26.8137, -1177.77
54336.7, 26.3133, -1175.25
54478.2, 26.0194, -1171.85
54620, 25.7899, -1168.84
54762.1, 25.624, -1165.43
54904.6, 25.6646, -1162.16
55047.5, 25.8038, -1158.81
55190.8, 26.3853, -1155.64
55334.5, 26.5826, -1153.43
55478.5, 25.7419, -1150.6
55622.9, 25.6267, -1147.08
55767.6, 25.9609, -1143.78
55912.8, 25.9873, -1141.09
56058.3, 26.2091, -1137.53
56204.2, 27.3626, -1135.32
56350.5, 25.9739, -1133.68
56497.2, 25.388, -1130.14
56644.2, 25.1734, -1126.99
56791.6, 25.0336, -1123.85
56939.4, 24.8602, -1120.76
57087.6, 24.8359, -1117.68
57236.2, 24.6024, -1114.6
57385.2, 24.5819, -1111.45
57534.5, 24.6121, -1108.42
57684.3, 24.6415, -1105.4
57834.4, 24.6195, -1102.46
57984.9, 24.5646, -1099.44
58135.8, 24.6505, -1096.44
58287.2, 24.7002, -1093.55
58438.9, 24.7226, -1090.49
58591, 25.1373, -1087.62
58743.5, 25.1676, -1085.36
58896.3, 24.5557, -1082.77
59049.6, 24.2407, -1079.57
59203.3, 24.2463, -1076.58
59357.4, 24.143, -1073.59
59511.9, 24.1912, -1070.65
59666.8, 24.2773, -1067.93
59822.1, 23.9847, -1065.05
59977.8, 23.9564, -1062.02
60133.9, 24.0166, -1059.12
60290.4, 24.1329, -1056.41
60447.3, 23.8677, -1053.6
60604.6, 23.8597, -1050.68
60762.4, 23.7153, -1047.72
60920.5, 23.9378, -1044.56
61079.1, 24.5605, -1041.83
61238, 24.5221, -1040.09
61397.4, 23.8796, -1037.14
61557.2, 23.8164, -1034.32
61717.4, 23.6609, -1031.55
61878.1, 23.5029, -1028.65
62039.1, 23.4638, -1025.78
62200.6, 23.478, -1022.93
62362.5, 23.453, -1020.19
62524.8, 23.4664, -1017.47
62687.5, 23.4433, -1014.8
62850.7, 23.2408, -1012.04
63014.2, 23.1766, -1009.24
63178.3, 23.1533, -1006.37
63342.7, 23.2757, -1003.65
63507.5, 23.2973, -1001
63672.8, 23.1211, -998.444
63838.6, 22.987, -995.637
64004.7, 22.9311, -992.845
64171.3, 22.9508, -990.056
64338.3, 22.9487, -987.338
64505.8, 22.9472, -984.591
64673.7, 23.0522, -981.844
64842, 23.0629, -979.319
65010.7, 23.0313, -976.517
65179.9, 23.1402, -973.789
65349.6, 23.4221, -971.297
65519.7, 22.9997, -969.015
65690.2, 22.8146, -966.16
65861.2, 22.7411, -963.304
66032.6, 22.8918, -960.285
66204.4, 23.0415, -957.393
66376.8, 23.2901, -954.584
66549.5, 23.3782, -951.953
66722.7, 23.8152, -949.175
66896.4, 24.6554, -947.163
67070.5, 24.1599, -944.773
67245.1, 24.177, -942.512
67420.1, 23.716, -939.83
67595.5, 23.4666, -936.988
67771.5, 23.4663, -934.115
67947.9, 23.562, -931.216
68124.7, 23.7397, -928.318
68302, 24.0477, -925.384
68479.8, 24.2766, -922.559
68658, 24.7633, -919.498
68836.7, 25.4969, -916.626
69015.9, 26.3396, -913.869
69195.5, 27.3384, -910.821
69375.6, 29.8526, -908.286
69556.2, 32.6903, -907.607
69737.2, 33.9268, -907.413
69918.7, 34.3949, -907.139
70100.7, 34.2958, -906.812
70283.1, 33.3523, -905.913
70466, 32.51, -904.51
70649.4, 31.5611, -902.883
70833.3, 30.6567, -900.765
71017.7, 30.0798, -898.711
71202.5, 29.1779, -896.823
71387.8, 28.2392, -894.445
71573.6, 27.6204, -891.822
71759.9, 27.2247, -889.358
71946.7, 26.7122, -886.756
72133.9, 26.8808, -884.576
72321.7, 25.8677, -882.503
72509.9, 25.577, -879.989
72698.6, 25.0138, -877.599
72887.8, 24.6487, -875.008
73077.5, 24.2146, -872.587
73267.7, 23.7682, -869.991
73458.4, 23.5236, -867.385
73649.6, 23.2684, -864.83
73841.3, 23.0407, -862.339
74033.5, 22.856, -859.587
74226.2, 23.1479, -857.212
74419.4, 22.7239, -855.194
74613.1, 22.2799, -852.456
74807.2, 22.3987, -849.719
75001.9, 22.7152, -847.694
75197.2, 22.0756, -845.49
75392.9, 22.1085, -842.888
75589.1, 22.0283, -840.799
75785.8, 21.5981, -838.413
75983.1, 21.4476, -835.955
76180.8, 21.2665, -833.564
76379.1, 21.0613, -831.086
76577.9, 20.9349, -828.603
76777.2, 20.8522, -826.114
76977, 20.8561, -823.676
77177.4, 20.8132, -821.214
77378.2, 20.9258, -818.804
77579.6, 20.978, -816.673
77781.6, 20.7989, -814.448
77984, 20.6287, -812.098
78187, 20.5235, -809.721
78390.5, 20.4721, -807.371
78594.5, 20.3741, -805.022
78799, 20.3104, -802.669
79004.1, 20.2886, -800.286
79209.8, 20.303, -797.962
79415.9, 20.3145, -795.691
79622.6, 20.2498, -793.404
79829.8, 20.1962, -791.1
80037.6, 20.1615, -788.797
80245.9, 20.0878, -786.476
80454.8, 20.0514, -784.105
80664.2, 20.081, -781.705
80874.1, 20.1571, -779.349
81084.6, 20.2219, -777.01
81295.6, 20.3459, -774.585
81507.2, 20.8146, -772.283
81719.4, 21.125, -770.68
81932.1, 20.5599, -768.564
82145.3, 20.5578, -766.206
82359.1, 20.5653, -763.976
82573.5, 20.4002, -761.685
82788.4, 20.5505, -759.256
83003.8, 20.7334, -757.223
83219.9, 20.3757, -755.037
83436.5, 20.3614, -752.499
83653.6, 20.4481, -750.153
83871.4, 20.45, -747.809
84089.6, 20.4657, -745.283
84308.5, 20.6213, -742.768
84527.9, 20.855, -740.196
84747.9, 21.224, -737.564
84968.5, 21.653, -734.923
85189.6, 22.1243, -732.31
85411.4, 22.5495, -729.524
85633.7, 23.4422, -726.345
85856.5, 25.884, -723.003
86080, 28.9364, -720.279
86304, 32.7452, -718.811
86528.7, 35.8862, -718.698
86753.9, 39.6579, -720.845
86979.7, 39.3929, -723.708
87206, 37.6157, -724.054
87433, 36.6775, -722.434
87660.6, 36.8883, -723.538
87888.7, 34.5598, -724.106
88117.5, 32.6615, -722.578
88346.8, 31.1172, -722.132
88576.8, 28.7647, -720.52
88807.3, 26.8499, -718.143
89038.4, 25.4909, -715.41
89270.2, 24.9074, -712.727
89502.5, 24.133, -710.695
89735.5, 23.2468, -708.357
89969, 22.6975, -705.884
90203.2, 21.9845, -703.593
90437.9, 21.4183, -700.975
90673.3, 21.1127, -698.404
90909.3, 21.0784, -695.953
91145.9, 20.779, -693.906
91383.1, 20.3913, -691.491
91621, 20.1799, -689.04
91859.4, 20.1453, -686.534
92098.5, 20.4882, -684.166
92338.2, 20.7662, -682.566
92578.6, 20.1393, -680.636
92819.5, 19.8736, -678.305
93061.1, 19.8224, -675.988
93303.3, 19.9447, -673.748
93546.1, 20.0451, -671.706
93789.6, 20.0944, -669.77
94033.7, 19.9138, -667.795
94278.5, 19.8045, -665.689
94523.8, 19.9056, -663.629
94769.8, 19.8653, -661.711
95016.5, 19.6548, -659.84
95263.8, 19.404, -657.633
95511.7, 19.3319, -655.486
95760.3, 19.2728, -653.21
96009.6, 19.4042, -651.03
96259.4, 19.5716, -648.868
96510, 19.7927, -647.035
96761.2, 19.6329, -645.034
97013, 19.6626, -642.886
97265.5, 19.8015, -640.744
97518.6, 20.069, -638.629
97772.5, 20.4848, -636.794
98026.9, 20.401, -635.344
98282.1, 20.026, -633.319
98537.9, 19.9573, -631.135
98794.3, 19.9547, -629.013
99051.4, 19.9837, -626.936
99309.2, 19.881, -624.798
99567.7, 19.8906, -622.428
99826.9, 20.0701, -620.103
100087, 20.3945, -617.849
100347, 20.5827, -615.706
100608, 20.7876, -613.45
100870, 20.8912, -611.089
101133, 21.2451, -608.612
101396, 21.6247, -606.072
101660, 22.1853, -603.54
101924, 22.8225, -600.977
102190, 23.4998, -598.305
102456, 24.3878, -595.406
102722, 25.6741, -592.373
102990, 27.5039, -589.273
103258, 29.6047, -586.288
103526, 32.4759, -582.945
103796, 36.9338, -579.707
104066, 43.1769, -577.822
104337, 47.8462, -581.096
104608, 52.3157, -582.288
104881, 57.8478, -586.994
105154, 60.181, -594.493
105427, 57.5837, -602.614
105702, 51.3025, -607.171
105977, 44.9488, -607.651
106253, 39.993, -606.439
106529, 36.3468, -604.294
106807, 33.2972, -601.991
107085, 31.1383, -599.57
107363, 29.0191, -597.136
107643, 27.3836, -594.513
107923, 26.1378, -591.983
108204, 25.0462, -589.371
108485, 24.2021, -586.876
108768, 23.7344, -584.389
109051, 23.4445, -582.288
109335, 22.8523, -580.433
109619, 22.2827, -578.399
109904, 21.7672, -576.19
110191, 21.5356, -574.192
110477, 21.2706, -572.324
110765, 20.7131, -570.661
111053, 20.1568, -568.543
111342, 19.8655, -566.527
111632, 19.532, -564.544
111922, 19.3479, -562.602
112214, 19.1053, -560.732
112506, 18.7627, -558.932
112799, 18.4634, -556.88
113092, 18.3833, -554.98
113387, 18.1367, -553.132
113682, 17.9644, -551.191
113978, 17.8666, -549.303
114274, 17.7778, -547.417
114572, 17.7659, -545.624
114870, 17.6092, -543.866
115169, 17.5558, -542.016
115469, 17.5266, -540.272
115769, 17.4102, -538.536
116070, 17.3241, -536.739
116372, 17.3084, -534.977
116675, 17.2852, -533.26
116979, 17.2373, -531.555
117283, 17.1687, -529.874
117589, 17.0826, -528.144
117895, 17.0522, -526.431
118202, 16.9885, -524.736
118509, 16.9217, -522.982
118818, 16.9568, -521.262
119127, 16.8651, -519.563
119437, 16.9572, -517.699
119748, 17.1196, -516.081
120060, 17.2099, -514.419
120372, 17.4531, -512.78
120685, 17.6989, -511.668
120999, 17.1871, -510.362
121314, 16.9176, -508.458
121630, 17.0021, -506.69
121947, 17.1134, -505.006
122264, 17.2546, -503.515
122582, 17.2861, -502.09
122901, 17.1213, -500.717
123221, 16.9109, -499.081
123542, 16.7686, -497.413
123863, 16.6461, -495.689
124186, 16.6689, -493.777
124509, 16.9972, -492.021
124833, 17.3434, -490.527
125158, 17.5414, -489.414
125484, 17.3831, -487.939
125810, 17.3938, -486.488
126138, 17.2721, -485.209
126466, 17.087, -483.494
126795, 17.0931, -482.007
127125, 16.911, -480.416
127456, 17.0248, -478.916
127788, 16.8161, -477.355
128120, 16.7958, -475.692
128454, 16.8231, -473.975
128788, 16.8152, -472.33
129123, 17.0089, -470.479
129459, 17.5526, -468.821
129796, 18.1901, -467.513
130134, 18.5527, -466.806
130473, 18.0941, -466.086
130812, 17.505, -464.717
131153, 17.2044, -463.043
131494, 17.236, -461.478
131837, 16.8422, -459.952
132180, 16.9078, -458.195
132524, 16.9176, -456.789
132869, 16.9541, -455.269
133214, 16.7041, -453.82
133561, 16.7429, -452.074
133909, 16.7967, -450.522
134257, 16.9577, -448.99
134607, 16.9732, -447.633
134957, 16.9208, -446.135
135308, 17.0038, -444.579
135660, 16.9754, -443.228
136014, 16.885, -441.78
136368, 16.6909, -440.181
136722, 16.7252, -438.506
137078, 16.9393, -436.835
137435, 17.2594, -435.383
137793, 17.4307, -434.148
138151, 17.3446, -432.927
138511, 17.184, -431.6
138871, 17.0023, -430.049
139233, 16.9352, -428.454
139595, 16.9092, -426.893
139959, 16.8436, -425.296
140323, 16.8499, -423.702
140688, 16.8355, -422.09
141054, 16.9112, -420.403
141421, 17.0446, -418.767
141789, 17.1739, -417.218
142158, 17.2183, -415.564
142528, 17.4397, -413.891
142899, 17.6495, -412.259
143271, 17.7961, -410.65
143644, 18.0166, -408.965
144018, 18.3654, -407.144
144393, 18.9437, -405.288
144769, 19.6606, -403.577
145146, 20.668, -401.82
145523, 21.9853, -400.275
145902, 23.5566, -399.27
146282, 24.8138, -398.462
146662, 26.1189, -398.094
147044, 26.7758, -397.853
147427, 27.0895, -397.473
147811, 27.3247, -396.847
148195, 27.5609, -396.481
148581, 27.5545, -396.135
148968, 27.2428, -395.477
149355, 27.0662, -394.741
149744, 26.6921, -393.987
150134, 26.2216, -392.974
150525, 25.9232, -391.815
150916, 25.5963, -390.602
151309, 25.4323, -389.365
151703, 25.1913, -388.277
152098, 25.0244, -387.226
152494, 24.6132, -386.246
152891, 24.1733, -384.975
153289, 23.9255, -383.659
153688, 23.6192, -382.338
154088, 23.4192, -381.046
154489, 23.1883, -379.851
154891, 22.7922, -378.75
155294, 22.283, -377.419
155698, 21.945, -375.982
156103, 21.6228, -374.489
156509, 21.3836, -373.044
156917, 21.0667, -371.566
157325, 20.8588, -370.011
157735, 20.6609, -368.426
158145, 20.5167, -366.877
158557, 20.4144, -365.302
158970, 20.355, -363.711
159383, 20.2828, -362.166
159798, 20.2714, -360.561
160214, 20.2669, -358.945
160631, 20.3829, -357.262
161049, 20.5884, -355.697
161468, 20.8821, -354.108
161888, 21.2176, -352.734
162310, 21.3522, -351.515
162732, 21.2856, -350.126
163156, 21.4596, -348.648
163580, 21.1328, -347.158
164006, 21.4793, -345.666
164433, 21.7196, -344.376
164861, 21.9671, -343.285
165290, 22.1002, -342.367
165720, 21.9513, -341.347
166152, 21.3519, -339.951
166584, 20.9109, -338.205
167018, 20.757, -336.291
167452, 20.7709, -334.394
167888, 20.9712, -332.514
168325, 21.3745, -330.661
168763, 22.0213, -329.192
169202, 22.2641, -327.66
169643, 22.6427, -326.149
170084, 22.9558, -324.671
170527, 23.2853, -323.112
170971, 23.7925, -321.598
171416, 24.2897, -320.178
171862, 24.812, -318.768
172309, 25.3302, -317.485
172758, 25.828, -316.263
173207, 26.3438, -314.831
173658, 27.0154, -313.806
174110, 27.3385, -312.748
174563, 28.1516, -311.911
175018, 28.0614, -311.645
175473, 27.9159, -310.592
175930, 27.8754, -309.631
176388, 28.0348, -308.825
176847, 27.4683, -308.35
177307, 26.7715, -306.935
177769, 26.5388, -305.632
178231, 25.9315, -304.3
178695, 25.5756, -302.48
179160, 25.6131, -300.742
179626, 25.5364, -299.376
180094, 24.9267, -297.718
180563, 24.7628, -295.486
181033, 25.165, -293.347
181504, 25.4044, -291.703
181976, 25.5814, -289.796
182450, 25.9932, -288.03
182925, 26.1558, -286.361
183401, 26.4825, -284.405
183878, 27.1985, -282.867
184357, 27.6433, -281.548
184837, 28.0199, -280.335
185318, 27.9433, -279.192
185800, 27.7673, -277.811
186284, 27.3282, -276.479
186768, 26.5581, -274.656
187254, 25.9982, -272.022
187742, 26.0691, -269.564
188230, 25.4289, -266.981
188720, 25.7688, -263.912
189212, 26.5977, -260.772
189704, 27.8621, -257.828
190198, 29.318, -255.21
190693, 30.816, -252.529
191189, 32.8932, -249.952
191687, 35.3094, -247.984
192186, 37.8713, -246.691
192686, 39.879, -246.02
193187, 41.3187, -245.686
193690, 41.7666, -245.162
194194, 41.9668, -243.941
194700, 42.2688, -242.413
195206, 42.341, -240.462
195714, 42.5909, -237.928
196224, 43.401, -234.773
196735, 44.9051, -232.109
197247, 45.9526, -229.112
197760, 47.6101, -225.265
198275, 51.1027, -221.467
198791, 55.5016, -218.887
199308, 58.2198, -219.482
199827, 61.4014, -216.474
200347, 64.654, -213.951
200868, 68.5264, -211.773
201391, 75.4058, -209.71
201915, 81.6671, -206.048
202441, 88.9963, -210.012
202968, 96.2265, -213.545
203496, 99.1629, -220.575
204026, 101.283, -222.825
204557, 106.945, -228.573
205089, 106.825, -236.865
205623, 106.255, -243.127
206158, 103.905, -251.534
206694, 94.9349, -258.288
207232, 84.8494, -255.395
207772, 82.7249, -252.054
208313, 80.5622, -249.771
208855, 79.6581, -247.73
209398, 81.0234, -246.786
209943, 79.1887, -248.481
210490, 77.3135, -247.353
211038, 75.7349, -247.573
211587, 72.8117, -246.501
212138, 70.703, -243.806
212690, 70.5019, -242.352
213243, 69.0462, -240.85
213798, 68.2259, -239.282
214355, 66.6153, -238.14
214913, 65.1182, -235.205
215472, 64.8744, -232.938
216033, 64.1477, -229.565
216595, 65.0066, -227.503
217159, 65.5088, -225.534
217724, 65.5211, -225.719
218291, 62.577, -223.957
218859, 60.9821, -219.574
219428, 62.8529, -215.48
219999, 62.9016, -214.732
220572, 61.0619, -211.609
221146, 60.034, -206.528
221722, 61.8025, -200.933
222299, 65.8704, -196.102
222877, 69.7807, -194.412
223457, 72.6094, -193.266
224039, 74.3714, -192.622
224622, 75.7614, -191.262
225207, 76.0228, -189.932
225793, 75.8283, -186.774
226381, 79.0705, -183.393
226970, 79.8337, -183.628
227560, 79.4058, -180.911
228153, 79.371, -177.068
228747, 81.0987, -171.313
229342, 83.9234, -167.589
229939, 86.3222, -162.745
230537, 90.1291, -158.839
231137, 92.9494, -154.394
231739, 97.8595, -149.91
232342, 101.224, -145.635
232947, 107.63, -138.938
233553, 114.506, -134.073
234161, 121.707, -125.827
234770, 136.794, -115.861
235381, 157.129, -112.099
235994, 179.052, -114.608
236608, 202.985, -124.023
237224, 222.788, -146.094
237841, 229.67, -173.855
238460, 221.288, -198.761
239081, 209.226, -212.063
239703, 198.332, -219.664
240327, 189.087, -225.767
240953, 179.301, -226.116
241580, 175.077, -231.649
242209, 163.909, -234.361
242839, 155.395, -230.095
243471, 149.683, -227.068
244105, 142.941, -221.803
244740, 138.5, -213.02
245377, 138.317, -202.525
246016, 141.028, -193.056
246656, 146.515, -183.092
247298, 154.775, -175.63
247942, 163.853, -169.306
248587, 177.298, -159.727
249234, 198.236, -154.72
249883, 226.521, -158.522
250533, 251.155, -180.592
251185, 256.404, -209.025
251839, 252.175, -224.994
252494, 257.841, -231.217
253151, 270.823, -252.176
253810, 271.809, -277.49
254471, 265.76, -304.825
255133, 252.275, -329.837
255797, 228.225, -349.481
256463, 203.748, -358.702
257130, 176.632, -360.51
257800, 157.439, -353.206
258471, 143.285, -347.159
259143, 129.85, -339.472
259818, 121.625, -329.27
260494, 116.084, -323.332
261172, 112.684, -316.914
261852, 108.495, -312.493
262533, 106.366, -308.652
263217, 100.789, -306.44
263902, 97.4284, -300.991
264588, 94.2443, -297.387
265277, 91.368, -293.239
265968, 90.2893, -289.892
266660, 86.8386, -288.582
267354, 83.6092, -285.428
268050, 80.244, -281.85
268747, 77.6612, -277.556
269447, 75.7409, -274.221
270148, 72.9992, -270.264
270851, 71.1273, -265.56
271556, 70.2288, -262.117
272263, 67.5735, -257.909
272971, 66.5256, -251.993
273682, 66.7683, -246.934
274394, 68.0575, -242.098
275108, 69.7815, -238.722
275824, 71.059, -235.893
276542, 71.9052, -234.184
277262, 71.3188, -231.696
277984, 71.2407, -229.061
278707, 70.0573, -225.421
279433, 70.5069, -219.899
280160, 73.1457, -215.72
280889, 75.4116, -212.891
281620, 77.0647, -210.221
282353, 79.2914, -206.638
283088, 82.7027, -204.04
283825, 85.6768, -203.369
284563, 86.9137, -202.115
285304, 88.5605, -200.031
286047, 90.0173, -198.015
286791, 92.9778, -194.819
287537, 97.2591, -194.803
288286, 97.9619, -194.473
289036, 99.5536, -192.954
289788, 101.192, -190.651
290543, 104.142, -187.658
291299, 108.646, -185.289
292057, 113.935, -183.212
292817, 120.757, -185.647
293579, 122.191, -185.78
294343, 128.894, -184.7
295109, 137.25, -187.666
295878, 143.545, -195.849
296648, 142.808, -206.04
297420, 138.326, -210.043
298194, 136.907, -210.575
298970, 138.055, -213.297
299748, 136.086, -216.903
300528, 133.686, -220.497
301310, 128.468, -221.112
302095, 126.659, -218.985
302881, 124.467, -217.982
303669, 124.109, -213.873
304459, 130.892, -210.66
305252, 135.849, -220.069
306046, 131.474, -226.365
306843, 125.437, -229.583
307641, 116.616, -230.819
308442, 108.582, -224.479
309245, 107.253, -217.297
310050, 104.661, -208.725
310857, 109.449, -199.949
311666, 114.078, -194.879
312477, 122.936, -191.646
313290, 128.727, -194.995
314106, 130.373, -195.628
314923, 132.642, -193.965
315743, 135.352, -193.187
316565, 140.766, -188.726
317389, 151.381, -188.849
318215, 160.495, -194.722
319043, 161.24, -199.628
319873, 165.664, -199.438
320706, 172.691, -201.259
321540, 182.777, -206.322
322377, 191.668, -215.991
323216, 195.86, -231.254
324058, 193.316, -242.618
324901, 192.108, -254.282
325747, 185.894, -264.047
326594, 181.637, -274.453
327444, 169.528, -283.437
328297, 159.525, -285.547
329151, 151.005, -288.363
330008, 139.804, -289.181
330867, 131.382, -283.009
331728, 131.173, -280.009
332591, 127.056, -283.24
333457, 119.337, -282.625
334325, 112.76, -279.118
335195, 108.147, -274.027
336067, 105.83, -267.714
336942, 106.456, -263.177
337819, 108.52, -259.06
338698, 112.709, -258.061
339580, 115.291, -260.615
340463, 116.58, -263.597
341350, 115.364, -267.318
342238, 113.482, -270.232
343129, 110.118, -272.845
344022, 106.902, -275.454
344917, 101.109, -277.959
345815, 94.0824, -276.893
346715, 89.1306, -272.849
347617, 86.7563, -269.817
348522, 84.5776, -266.608
349429, 83.2693, -263.579
350339, 83.9039, -261.5
351250, 83.0128, -261.983
352165, 80.5018, -260.869
353081, 79.5088, -259.284
354000, 77.8712, -258.291
354922, 76.3305, -257.227
355845, 73.8364, -256.072
356771, 70.8476, -252.851
357700, 69.9882, -248.904
358631, 69.0652, -245.009
359564, 70.3352, -239.698
360500, 74.0534, -235.901
361438, 78.6892, -233.777
362379, 84.1084, -233.265
363322, 91.6584, -236.026
364268, 95.4368, -244.107
365216, 94.4458, -252.587
366167, 89.9706, -259.9
367120, 81.4469, -263.661
368075, 75.1079, -262.763
369033, 69.4867, -261.409
369994, 66.1234, -258.835
370956, 63.3048, -256.68
371922, 61.6164, -254.881
372890, 59.2918, -253.143
373860, 58.0077, -252.224
374834, 56.0246, -251.907
375809, 52.804, -251.23
376787, 49.3749, -249.28
377768, 46.4403, -246.639
378751, 44.247, -243.745
379737, 41.7798, -240.637
380725, 40.2817, -235.988
381716, 41.1226, -231.904
382710, 42.38, -229.6
383706, 43.3545, -228.678
384704, 42.8417, -228.12
385706, 42.0951, -227.027
386709, 40.9394, -226.02
387716, 39.2293, -224.299
388725, 37.6862, -221.804
389737, 36.7077, -218.78
390751, 36.5764, -215.428
391768, 37.098, -212.464
392788, 37.8707, -210.001
393810, 38.5202, -207.957
394835, 39.3821, -205.169
395863, 40.9007, -203.184
396893, 42.536, -201.061
397926, 44.9643, -199.89
398962, 46.6379, -199.805
400000, 47.5068, -199.329
END